Folder: spring_24_solidstate/xrd_generator

Note: README.md
# spring_24_solidstate
Spring 2024 project under Prof. Oliynyk at Hunter College.

File: 31.xy
19.99786 85.000
20.20401 95.000
20.41017 95.000
20.61633 80.000
20.82249 86.000
21.02865 87.000
21.23480 97.000
21.44096 74.000
21.64712 99.000
21.85328 85.000
22.05944 69.000
22.26560 91.000
22.47175 86.000
22.67791 77.000
22.88407 86.000
23.09023 70.000
23.29639 73.000
23.50254 81.000
23.70870 57.000
23.91486 68.000
24.12102 65.000
24.32718 86.000
24.53333 62.000
24.73949 67.000
24.94565 57.000
25.15181 56.000
25.35797 80.000
25.56412 57.000
25.77028 63.000
25.97644 65.000
26.18260 48.000
26.38876 57.000
26.59491 57.000
26.80107 50.000
27.00723 54.000
27.21339 46.000
27.41955 57.000
27.62570 54.000
27.83186 56.000
28.03802 51.000
28.24418 97.000
28.45034 94.000
28.65649 80.000
28.86265 62.000
29.06881 57.000
29.27497 67.000
29.48113 118.000
29.68728 55.000
29.89344 59.000
30.09960 50.000
30.30576 50.000
30.51192 40.000
30.71807 42.000
30.92423 45.000
31.13039 55.000
31.33655 64.000
31.54271 47.000
31.74886 51.000
31.95502 39.000
32.16118 40.000
32.36734 101.000
32.57350 47.000
32.77965 51.000
32.98581 41.000
33.19197 48.000
33.39813 70.000
33.60429 196.000
33.81044 201.000
34.01660 315.000
34.22276 78.000
34.42892 62.000
34.63508 55.000
34.84123 72.000
35.04739 135.000
35.25355 46.000
35.45971 47.000
35.66587 39.000
35.87202 33.000
36.07818 36.000
36.28434 41.000
36.49050 50.000
36.69666 58.000
36.90281 53.000
37.10897 20.000
37.31513 44.000
37.52129 70.000
37.72745 33.000
37.93361 36.000
38.13976 22.000
38.34592 43.000
38.55208 34.000
38.75824 28.000
38.96440 20.000
39.17055 33.000
39.37671 36.000
39.58287 28.000
39.78903 31.000
39.99519 48.000
40.20134 41.000
40.40750 28.000
40.61366 35.000
40.81982 18.000
41.02598 25.000
41.23213 26.000
41.43829 35.000
41.64445 32.000
41.85061 17.000
42.05677 33.000
42.26292 22.000
42.46908 23.000
42.67524 30.000
42.88140 37.000
43.08756 26.000
43.29371 21.000
43.49987 27.000
43.70603 28.000
43.91219 22.000
44.11835 21.000
44.32450 15.000
44.53066 26.000
44.73682 28.000
44.94298 24.000
45.14914 32.000
45.35529 19.000
45.56145 19.000
45.76761 25.000
45.97377 25.000
46.17993 26.000
46.38608 31.000
46.59224 22.000
46.79840 23.000
47.00456 28.000
47.21072 23.000
47.41687 32.000
47.62303 50.000
47.82919 30.000
48.03535 16.000
48.24151 45.000
48.44766 26.000
48.65382 29.000
48.85998 22.000
49.06614 11.000
49.27230 31.000
49.47845 27.000
49.68461 26.000
49.89077 28.000
50.09693 29.000
50.30309 23.000
50.50924 21.000
50.71540 28.000
50.92156 30.000
51.12772 46.000
51.33388 30.000
51.54003 29.000
51.74619 27.000
51.95235 39.000
52.15851 22.000
52.36467 28.000
52.57083 26.000
52.77698 28.000
52.98314 23.000
53.18930 25.000
53.39546 38.000
53.60162 27.000
53.80777 29.000
54.01393 23.000
54.22009 20.000
54.42625 27.000
54.63241 33.000
54.83856 30.000
55.04472 30.000
55.25088 50.000
55.45704 30.000
55.66320 91.000
55.86935 66.000
56.07551 51.000
56.28167 36.000
56.48783 18.000
56.69399 22.000
56.90014 44.000
57.10630 39.000
57.31246 103.000
57.51862 160.000
57.72478 86.000
57.93093 44.000
58.13709 35.000
58.34325 48.000
58.54941 78.000
58.75557 47.000
58.96172 32.000
59.16788 17.000
59.37404 22.000
59.58020 31.000
59.78636 22.000
59.99251 21.000
60.19867 18.000
60.40483 27.000
60.61099 29.000
60.81715 34.000
61.02330 24.000
61.22946 23.000
61.43562 20.000
61.64178 26.000
61.84794 23.000
62.05409 29.000
62.26025 27.000
62.46641 20.000
62.67257 20.000
62.87873 20.000
63.08488 23.000
63.29104 15.000
63.49720 12.000
63.70336 23.000
63.90952 21.000
64.11567 26.000
64.32183 13.000
64.52799 21.000
64.73415 16.000
64.94031 27.000
65.14646 18.000
65.35262 28.000
65.55878 35.000
65.76494 30.000
65.97110 26.000
66.17725 28.000
66.38341 28.000
66.58957 24.000
66.79573 27.000
67.00189 26.000
67.20804 25.000
67.41420 29.000
67.62036 31.000
67.82652 27.000
68.03268 38.000
68.23884 40.000
68.44499 49.000
68.65115 35.000
68.85731 45.000
69.06347 34.000
69.26963 22.000
69.47578 19.000
69.68194 29.000
69.88810 40.000
70.09426 51.000
70.30042 45.000
70.50657 31.000
70.71273 31.000
70.91889 34.000
71.12505 28.000
71.33121 25.000
71.53736 30.000
71.74352 18.000
71.94968 33.000
72.15584 22.000
72.36200 14.000
72.56815 18.000
72.77431 19.000
72.98047 20.000
73.18663 22.000
73.39279 15.000
73.59894 19.000
73.80510 20.000
74.01126 28.000
74.21742 23.000
74.42358 18.000
74.62973 16.000
74.83589 22.000
75.04205 26.000
75.24821 23.000
75.45437 22.000
75.66052 15.000
75.86668 22.000
76.07284 15.000
76.27900 26.000
76.48516 29.000
76.69131 25.000
76.89747 21.000
77.10363 19.000
77.30979 17.000
77.51595 24.000
77.72210 26.000
77.92826 24.000
78.13442 24.000
78.34058 18.000
78.54674 21.000
78.75289 21.000
78.95905 14.000
79.16521 33.000
79.37137 14.000
79.57753 25.000
79.78368 19.000
79.98984 23.000
80.00015 25.000